{
    "resourceType": "Bundle",
    "type": "collection",
    "entry": [
      {
        "fullUrl": "http://example.org/fhir/Patient/Scenario1Patient",
        "resource": {
          "resourceType": "Patient",
          "id": "Scenario1Patient",
          "meta": {
            "profile": [
              "http://hl7.org/fhir/us/vaccinecredential/StructureDefinition/vaccine-credential-patient"
            ]
          },
          "name": [
            {
              "family": "Anyperson",
              "given": [
                "John",
                "B."
              ]
            }
          ],
          "telecom": [
            {
              "system": "phone",
              "value": "555-555-5555",
              "use": "home"
            },
            {
              "system": "email",
              "value": "john.anyperson@example.com"
            }
          ],
          "gender": "male",
          "birthDate": "1951-01-20",
          "address": [
            {
              "line": [
                "123 Main St"
              ],
              "city": "Anytown",
              "postalCode": "12345",
              "country": "US"
            }
          ]
        }
      },
      {
        "fullUrl": "http://example.org/fhir/Immunization/Scenario1Immunization1",
        "resource": {
          "resourceType": "Immunization",
          "id": "Scenario1Immunization1",
          "meta": {
            "profile": [
              "http://hl7.org/fhir/us/vaccinecredential/StructureDefinition/vaccine-credential-immunization"
            ]
          },
          "status": "completed",
          "vaccineCode": {
            "coding": [
              {
                "system": "http://hl7.org/fhir/sid/cvx",
                "code": "207",
                "display": "COVID-19, mRNA, LNP-S, PF, 100 mcg/0.5 mL dose"
              }
            ]
          },
          "patient": {
            "reference": "Patient/Scenario1Patient"
          },
          "occurrenceDateTime": "2021-01-01T11:45:33+11:00",
          "primarySource": true,
          "location": {
            "reference": "Location/Scenario1Location"
          },
          "lotNumber": "Lot #0000001"
        }
      },
      {
        "fullUrl": "http://example.org/fhir/Immunization/Scenario1Immunization2",
        "resource": {
          "resourceType": "Immunization",
          "id": "Scenario1Immunization2",
          "meta": {
            "profile": [
              "http://hl7.org/fhir/us/vaccinecredential/StructureDefinition/vaccine-credential-immunization"
            ]
          },
          "status": "completed",
          "vaccineCode": {
            "coding": [
              {
                "system": "http://hl7.org/fhir/sid/cvx",
                "code": "207",
                "display": "COVID-19, mRNA, LNP-S, PF, 100 mcg/0.5 mL dose"
              }
            ]
          },
          "patient": {
            "reference": "Patient/Scenario1Patient"
          },
          "occurrenceDateTime": "2021-01-29T11:45:33+11:00",
          "primarySource": true,
          "location": {
            "reference": "Location/Scenario1Location"
          },
          "lotNumber": "Lot #0000007"
        }
      },
      {
        "fullUrl": "http://example.org/fhir/Immunization/Scenario1Location",
        "resource": {
          "resourceType": "Location",
          "id": "Scenario1Location",
          "meta": {
            "profile": [
              "http://hl7.org/fhir/us/core/StructureDefinition/us-core-location"
            ]
          },
          "name": "ABC Pharmacy"
        }
      }
    ]
  }