{
  "resourceType": "CarePlan",
  "id": "gpvisit",
  "contained": [
    {
      "resourceType": "Condition",
      "id": "p1",
      "clinicalStatus": {
        "coding": [
          {
            "system": "http://terminology.hl7.org/CodeSystem/condition-clinical",
            "code": "active"
          }
        ]
      },
      "verificationStatus": {
        "coding": [
          {
            "system": "http://terminology.hl7.org/CodeSystem/condition-ver-status",
            "code": "confirmed"
          }
        ]
      },
      "code": {
        "text": "Overseas encounter"
      },
      "subject": {
        "reference": "Patient/100",
        "display": "Peter James Chalmers"
      }
    },
    {
      "resourceType": "CareTeam",
      "id": "careteam",
      "participant": [
        {
          "id": "part1",
          "role": [
            {
              "coding": [
                {
                  "system": "http://example.org/local",
                  "code": "nur"
                }
              ],
              "text": "nurse"
            }
          ],
          "member": {
            "reference": "Practitioner/13",
            "display": "Nurse Nancy"
          }
        },
        {
          "id": "part2",
          "role": [
            {
              "coding": [
                {
                  "system": "http://example.org/local",
                  "code": "doc"
                }
              ],
              "text": "doctor"
            }
          ],
          "member": {
            "reference": "Practitioner/14",
            "display": "Doctor Dave"
          }
        }
      ]
    },
    {
      "resourceType": "Goal",
      "id": "goal",
      "lifecycleStatus": "planned",
      "description": {
        "text": "Complete consultation"
      },
      "subject": {
        "reference": "Patient/100",
        "display": "Peter James Chalmers"
      }
    }
  ],
  "status": "active",
  "intent": "plan",
  "subject": {
    "reference": "Patient/100",
    "display": "Peter James Chalmers"
  },
  "period": {
    "start": "2013-01-01T10:30:00+00:00"
  },
  "careTeam": [
    {
      "reference": "#careteam"
    }
  ],
  "addresses": [
    {
      "reference": "#p1",
      "display": "obesity"
    }
  ],
  "goal": [
    {
      "reference": "#goal"
    }
  ],
  "activity": [
    {
      "outcomeReference": [
        {
          "reference": "Encounter/example"
        }
      ],
      "detail": {
        "kind": "Appointment",
        "code": {
          "coding": [
            {
              "system": "http://example.org/local",
              "code": "nursecon"
            }
          ],
          "text": "Nurse Consultation"
        },
        "status": "completed",
        "doNotPerform": false,
        "scheduledPeriod": {
          "start": "2013-01-01T10:38:00+00:00",
          "end": "2013-01-01T10:50:00+00:00"
        },
        "performer": [
          {
            "reference": "Practitioner/13",
            "display": "Nurse Nancy"
          }
        ]
      }
    },
    {
      "detail": {
        "kind": "Appointment",
        "code": {
          "coding": [
            {
              "system": "http://example.org/local",
              "code": "doccon"
            }
          ],
          "text": "Doctor Consultation"
        },
        "status": "scheduled",
        "doNotPerform": false,
        "performer": [
          {
            "reference": "Practitioner/14",
            "display": "Doctor Dave"
          }
        ]
      }
    }
  ],
  "meta": {
    "tag": [
      {
        "system": "http://terminology.hl7.org/CodeSystem/v3-ActReason",
        "code": "HTEST",
        "display": "test health data"
      }
    ]
  }
}