{
  "resourceType": "CarePlan",
  "id": "f202",
  "contained": [
    {
      "resourceType": "Medication",
      "id": "doce",
      "code": {
        "coding": [
          {
            "system": "http://snomed.info/sct",
            "code": "108806006",
            "display": "Docetaxel"
          }
        ]
      }
    },
    {
      "resourceType": "Medication",
      "id": "cisp",
      "code": {
        "coding": [
          {
            "system": "http://snomed.info/sct",
            "code": "57066004",
            "display": "Cisplatin"
          }
        ]
      }
    },
    {
      "resourceType": "Medication",
      "id": "fluo",
      "code": {
        "coding": [
          {
            "system": "http://snomed.info/sct",
            "code": "3127006",
            "display": "Fluorouracil"
          }
        ]
      }
    },
    {
      "resourceType": "Medication",
      "id": "tpf",
      "code": {
        "text": "TPF"
      },
      "ingredient": [
        {
          "itemReference": {
            "reference": "#doce"
          }
        },
        {
          "itemReference": {
            "reference": "#cisp"
          }
        },
        {
          "itemReference": {
            "reference": "#fluo"
          }
        }
      ]
    },
    {
      "resourceType": "CareTeam",
      "id": "careteam",
      "participant": [
        {
          "role": [
            {
              "coding": [
                {
                  "system": "http://snomed.info/sct",
                  "code": "28995006",
                  "display": "Treated with"
                }
              ]
            }
          ],
          "member": {
            "reference": "Practitioner/f201",
            "display": "Dokter Bronsig"
          }
        }
      ]
    },
    {
      "resourceType": "Goal",
      "id": "goal",
      "lifecycleStatus": "active",
      "description": {
        "text": "Elimination of the spenoid bone tumor"
      },
      "subject": {
        "reference": "Patient/f201",
        "display": "Roel"
      }
    }
  ],
  "status": "active",
  "intent": "plan",
  "subject": {
    "reference": "Patient/f201",
    "display": "Roel"
  },
  "careTeam": [
    {
      "reference": "#careteam"
    }
  ],
  "addresses": [
    {
      "reference": "Condition/f202",
      "display": "Roel's head-neck tumor"
    }
  ],
  "goal": [
    {
      "reference": "#goal"
    }
  ],
  "activity": [
    {
      "outcomeReference": [
        {
          "reference": "Procedure/f201",
          "display": "Roel's Chemotherapy"
        }
      ],
      "detail": {
        "kind": "ServiceRequest",
        "code": {
          "coding": [
            {
              "system": "http://snomed.info/sct",
              "code": "367336001",
              "display": "Chemotherapy"
            }
          ]
        },
        "status": "in-progress",
        "doNotPerform": false,
        "productReference": {
          "reference": "#tpf"
        }
      }
    }
  ],
  "meta": {
    "tag": [
      {
        "system": "http://terminology.hl7.org/CodeSystem/v3-ActReason",
        "code": "HTEST",
        "display": "test health data"
      }
    ]
  }
}