{
  "resourceType": "List",
  "id": "f201",
  "contained": [
    {
      "resourceType": "FamilyMemberHistory",
      "id": "fmh-1",
      "status": "completed",
      "patient": {
        "reference": "Patient/f201",
        "display": "Roel"
      },
      "relationship": {
        "coding": [
          {
            "system": "http://snomed.info/sct",
            "code": "72705000",
            "display": "Mother"
          }
        ]
      },
      "deceasedBoolean": false,
      "condition": [
        {
          "code": {
            "coding": [
              {
                "system": "http://snomed.info/sct",
                "code": "39839004",
                "display": "Diaphragmatic hernia"
              }
            ]
          }
        }
      ]
    },
    {
      "resourceType": "FamilyMemberHistory",
      "id": "fmh-2",
      "status": "completed",
      "patient": {
        "reference": "Patient/f201",
        "display": "Roel"
      },
      "relationship": {
        "coding": [
          {
            "system": "http://snomed.info/sct",
            "code": "38048003",
            "display": "Uncle"
          }
        ]
      },
      "deceasedBoolean": true,
      "condition": [
        {
          "code": {
            "coding": [
              {
                "system": "http://snomed.info/sct",
                "code": "115665000",
                "display": "Atopy"
              }
            ]
          },
          "outcome": {
            "coding": [
              {
                "system": "http://snomed.info/sct",
                "code": "419099009",
                "display": "Died"
              }
            ]
          }
        }
      ]
    }
  ],
  "status": "current",
  "mode": "snapshot",
  "code": {
    "coding": [
      {
        "system": "http://loinc.org",
        "code": "8670-2",
        "display": "History of family member diseases"
      }
    ]
  },
  "subject": {
    "reference": "Patient/f201",
    "display": "Roel"
  },
  "note": [
    {
      "text": "Both parents, both brothers and both children (twin) are still alive."
    }
  ],
  "entry": [
    {
      "item": {
        "reference": "#fmh-1"
      }
    },
    {
      "item": {
        "reference": "#fmh-2"
      }
    }
  ],
  "meta": {
    "tag": [
      {
        "system": "http://terminology.hl7.org/CodeSystem/v3-ActReason",
        "code": "HTEST",
        "display": "test health data"
      }
    ]
  }
}