{
  "resourceType": "Substance",
  "id": "f205",
  "contained": [
    {
      "resourceType": "Substance",
      "id": "ingr1",
      "code": {
        "coding": [
          {
            "system": "http://snomed.info/sct",
            "code": "372687004",
            "display": "Amoxicillin (substance)"
          }
        ]
      }
    },
    {
      "resourceType": "Substance",
      "id": "ingr2",
      "code": {
        "coding": [
          {
            "system": "http://snomed.info/sct",
            "code": "395938000",
            "display": "Clavulanate potassium (substance)"
          }
        ]
      }
    }
  ],
  "category": [
    {
      "coding": [
        {
          "system": "http://terminology.hl7.org/CodeSystem/substance-category",
          "code": "drug",
          "display": "Drug or Medicament"
        }
      ]
    }
  ],
  "code": {
    "coding": [
      {
        "system": "http://snomed.info/sct",
        "code": "392259005",
        "display": "Amoxicillin + clavulanate potassium 875mg/125mg tablet (product)"
      }
    ]
  },
  "description": "Augmentin 875",
  "ingredient": [
    {
      "quantity": {
        "numerator": {
          "value": 875,
          "unit": "mg",
          "system": "http://unitsofmeasure.org",
          "code": "mg"
        },
        "denominator": {
          "value": 1000,
          "unit": "mg",
          "system": "http://unitsofmeasure.org",
          "code": "mg"
        }
      },
      "substanceReference": {
        "reference": "#ingr1"
      }
    },
    {
      "quantity": {
        "numerator": {
          "value": 125,
          "unit": "mg",
          "system": "http://unitsofmeasure.org",
          "code": "mg"
        },
        "denominator": {
          "value": 1000,
          "unit": "mg",
          "system": "http://unitsofmeasure.org",
          "code": "mg"
        }
      },
      "substanceReference": {
        "reference": "#ingr2"
      }
    }
  ],
  "meta": {
    "tag": [
      {
        "system": "http://terminology.hl7.org/CodeSystem/v3-ActReason",
        "code": "HTEST",
        "display": "test health data"
      }
    ]
  }
}