{
  "resourceType": "Bundle",
  "id": "Scenario1Bundle",
  "type": "collection",
  "entry": [
    {
      "fullUrl": "resource:0",
      "resource": {
        "resourceType": "Patient",
        "name": [
          {
            "family": "Anyperson",
            "given": [
              "John",
              "B."
            ]
          }
        ],
        "telecom": [
          {
            "system": "phone",
            "value": "555-555-5555",
            "use": "home"
          },
          {
            "system": "email",
            "value": "john.anyperson@example.com"
          }
        ],
        "gender": "male",
        "birthDate": "1951-01-20",
        "address": [
          {
            "line": [
              "123 Main St"
            ],
            "city": "Anytown",
            "postalCode": "12345",
            "country": "US"
          }
        ]
      }
    },
    {
      "fullUrl": "resource:1",
      "resource": {
        "resourceType": "Immunization",
        "status": "completed",
        "vaccineCode": {
          "coding": [
            {
              "system": "http://hl7.org/fhir/sid/cvx",
              "code": "207"
            }
          ]
        },
        "patient": {
          "reference": "Patient/resource:0"
        },
        "occurrenceDateTime": "2021-01-01",
        "primarySource": true,
        "location": {
          "reference": "Location/resource:3"
        },
        "lotNumber": "Lot #0000001"
      }
    },
    {
      "fullUrl": "resource:2",
      "resource": {
        "resourceType": "Immunization",
        "status": "completed",
        "vaccineCode": {
          "coding": [
            {
              "system": "http://hl7.org/fhir/sid/cvx",
              "code": "207"
            }
          ]
        },
        "patient": {
          "reference": "Patient/resource:0"
        },
        "occurrenceDateTime": "2021-01-29",
        "primarySource": true,
        "location": {
          "reference": "Location/resource:3"
        },
        "lotNumber": "Lot #0000007"
      }
    },
    {
      "fullUrl": "resource:3",
      "resource": {
        "resourceType": "Location",
        "name": "ABC Pharmacy"
      }
    }
  ]
}