{
  "resourceType": "Bundle",
  "id": "Scenario2Bundle",
  "type": "collection",
  "entry": [
    {
      "fullUrl": "resource:0",
      "resource": {
        "resourceType": "Patient",
        "name": [
          {
            "family": "Anyperson",
            "given": [
              "Jane",
              "C."
            ]
          }
        ],
        "telecom": [
          {
            "system": "phone",
            "value": "555-555-5555",
            "use": "home"
          },
          {
            "system": "email",
            "value": "jane.anyperson@example.com"
          }
        ],
        "gender": "male",
        "birthDate": "1961-01-20",
        "address": [
          {
            "line": [
              "321 State St"
            ],
            "city": "Somecity",
            "postalCode": "12345",
            "country": "US"
          }
        ],
        "communication": [
          {
            "language": {
              "coding": [
                {
                  "system": "urn:ietf:bcp:47",
                  "code": "en-US",
                  "display": "English (Region=United States)"
                }
              ],
              "text": "English"
            }
          }
        ]
      }
    },
    {
      "fullUrl": "resource:1",
      "resource": {
        "resourceType": "Immunization",
        "status": "completed",
        "vaccineCode": {
          "coding": [
            {
              "system": "http://hl7.org/fhir/sid/cvx",
              "code": "208"
            }
          ]
        },
        "patient": {
          "reference": "Patient/resource:0"
        },
        "occurrenceDateTime": "2021-01-01",
        "primarySource": true,
        "location": {
          "reference": "Location/resource:3"
        },
        "lotNumber": "Lot #0000001"
      }
    },
    {
      "fullUrl": "resource:2",
      "resource": {
        "resourceType": "Immunization",
        "status": "completed",
        "vaccineCode": {
          "coding": [
            {
              "system": "http://hl7.org/fhir/sid/cvx",
              "code": "208"
            }
          ]
        },
        "patient": {
          "reference": "Patient/resource:0"
        },
        "occurrenceDateTime": "2021-01-29",
        "primarySource": true,
        "location": {
          "reference": "Location/resource:3"
        },
        "lotNumber": "Lot #0000007"
      }
    },
    {
      "fullUrl": "resource:3",
      "resource": {
        "resourceType": "Location",
        "name": "ABC Pharmacy"
      }
    }
  ]
}