<?xml version="1.0" encoding="UTF-8"?>
<Medication xmlns="http://hl7.org/fhir">
  <id value="medexample015"/>
  <meta>
    <security>
      <system value="http://terminology.hl7.org/CodeSystem/v3-ActReason"/>
      <code value="HTEST"/>
      <display value="test health data"/>
    </security>
  </meta>
  <contained>
    <Organization>
      <id value="org2"/>
      <name value="Gene Inc"/>
    </Organization>
  </contained>
  <contained>
    <Substance>
      <id value="sub04"/>
      <code>
        <coding>
          <system value="http://snomed.info/sct"/>
          <code value="386906001"/>
          <display value="Capecitabine (substance)"/>
        </coding>
      </code>
    </Substance>
  </contained>
  <code>
    <coding>
      <system value="http://www.nlm.nih.gov/research/umls/rxnorm"/>
      <code value="213293"/>
      <display value="Capecitabine 500mg oral tablet (Xeloda)"/>
    </coding>
  </code>
  <manufacturer>
      <reference value="#org2"/>
  </manufacturer>
    <form>
      <coding>
        <system value="http://snomed.info/sct"/>
        <code value="385055001"/>
        <display value="Tablet dose form (qualifier value)"/>
      </coding>
    </form>
    <ingredient>
      <itemReference>
        <reference value="#sub04"/>
      </itemReference>
      <strength>
        <numerator>
          <value value="500"/>
          <system value="http://unitsofmeasure.org"/>
          <code value="mg"/>
        </numerator>
        <denominator>
          <value value="1"/>
          <system value="http://terminology.hl7.org/CodeSystem/v3-orderableDrugForm"/>
          <code value="TAB"/>
        </denominator>
      </strength>
    </ingredient>
  <batch>
    <lotNumber value="9494788"/>
    <expirationDate value="2017-05-22"/>
  </batch>
</Medication>
